#
# Results on Sat, 07 Sep 2024 17:49:36 GMT
# USER AGENT: Mozilla/5.0 (Macintosh; Intel Mac OS X 10_15_7) AppleWebKit/605.1.15 (KHTML, like Gecko) Version/17.6 Safari/605.1.15
# Design number was non-random = 0
#
# Columns below this comment are as follows:
# 1. Results reception time.
# 2. MD5 hash of participant's IP address.
# 3. Controller name.
# 4. Order number of item.
# 5. Inner element number.
# 6. Label.
# 7. Latin Square Group.
# 8. PennElementType.
# 9. PennElementName.
# 10. Parameter.
# 11. Value.
# 12. EventTime.
# 13. Comments.

1725731376,23e19b9d1fce5b0c0e0e6f6efc814b51,PennController,2,0,Consent,NULL,PennController,1,_Trial_,Start,1725731113775,NULL
1725731376,23e19b9d1fce5b0c0e0e6f6efc814b51,PennController,2,0,Consent,NULL,PennController,1,_Trial_,End,1725731125785,NULL
1725731376,23e19b9d1fce5b0c0e0e6f6efc814b51,PennController,3,0,LangCheck,NULL,PennController,2,_Trial_,Start,1725731125790,NULL
1725731376,23e19b9d1fce5b0c0e0e6f6efc814b51,PennController,3,0,LangCheck,NULL,DropDown,LangSelect,Selected,Chinese,1725731128606,1
1725731376,23e19b9d1fce5b0c0e0e6f6efc814b51,PennController,3,0,LangCheck,NULL,PennController,2,_Trial_,End,1725731129785,NULL
1725731376,23e19b9d1fce5b0c0e0e6f6efc814b51,PennController,4,0,CollCheck,NULL,PennController,3,_Trial_,Start,1725731129791,NULL
1725731376,23e19b9d1fce5b0c0e0e6f6efc814b51,PennController,4,0,CollCheck,NULL,DropDown,DD1Drop,Selected,Yes,1725731132174,0
1725731376,23e19b9d1fce5b0c0e0e6f6efc814b51,PennController,4,0,CollCheck,NULL,DropDown,DD2Drop,Selected,1 Year%2C will begin second year (sophomore) in Fall 2021,1725731134484,1
1725731376,23e19b9d1fce5b0c0e0e6f6efc814b51,PennController,4,0,CollCheck,NULL,DropDown,DD3Drop,Selected,Carlow University,1725731137328,6
1725731376,23e19b9d1fce5b0c0e0e6f6efc814b51,PennController,4,0,CollCheck,NULL,PennController,3,_Trial_,End,1725731139152,NULL
1725731376,23e19b9d1fce5b0c0e0e6f6efc814b51,PennController,5,0,HardwareQ,NULL,PennController,4,_Trial_,Start,1725731139159,NULL
1725731376,23e19b9d1fce5b0c0e0e6f6efc814b51,PennController,5,0,HardwareQ,NULL,DropDown,DeviceType,Selected,Laptop Computer,1725731142040,1
1725731376,23e19b9d1fce5b0c0e0e6f6efc814b51,PennController,5,0,HardwareQ,NULL,DropDown,BrowserType,Selected,Safari,1725731145062,2
1725731376,23e19b9d1fce5b0c0e0e6f6efc814b51,PennController,5,0,HardwareQ,NULL,PennController,4,_Trial_,End,1725731146250,NULL
1725731376,23e19b9d1fce5b0c0e0e6f6efc814b51,PennController,6,0,Attention,NULL,PennController,5,_Trial_,Start,1725731146256,NULL
1725731376,23e19b9d1fce5b0c0e0e6f6efc814b51,PennController,6,0,Attention,NULL,PennController,5,_Trial_,End,1725731153856,NULL
1725731376,23e19b9d1fce5b0c0e0e6f6efc814b51,PennController,7,0,Calibration,NULL,PennController,6,_Trial_,Start,1725731153858,NULL
1725731376,23e19b9d1fce5b0c0e0e6f6efc814b51,PennController,7,0,Calibration,NULL,PennController,6,_Trial_,End,1725731155193,NULL
1725731376,23e19b9d1fce5b0c0e0e6f6efc814b51,PennController,8,0,Instructions,NULL,PennController,7,_Trial_,Start,1725731155197,NULL
1725731376,23e19b9d1fce5b0c0e0e6f6efc814b51,PennController,8,0,Instructions,NULL,PennController,7,_Trial_,End,1725731156611,NULL
1725731376,23e19b9d1fce5b0c0e0e6f6efc814b51,PennController,9,0,PracIntro,NULL,PennController,8,_Trial_,Start,1725731156615,NULL
1725731376,23e19b9d1fce5b0c0e0e6f6efc814b51,PennController,9,0,PracIntro,NULL,PennController,8,_Trial_,End,1725731157988,NULL
# 13. ItemNum.
# 14. WC.
# 15. CompYN.
# 16. CompQResp.
# 17. CorResp.
# 18. Feedback.
# 19. WarnCount.
# 20. ParticipantID.
# 21. TrialNum.
# 22. Comments.
1725731376,23e19b9d1fce5b0c0e0e6f6efc814b51,PennController,10,0,PracTrial,NULL,PennController,9,_Trial_,Start,1725731157991,13,31,Y,FALSE,TRUE,Wrong!,undefined,ParticipantID,None,NULL
1725731376,23e19b9d1fce5b0c0e0e6f6efc814b51,PennController,10,0,PracTrial,NULL,Text,CompQ,Print,NA,1725731174004,13,31,Y,FALSE,TRUE,Wrong!,undefined,ParticipantID,None,NULL
1725731376,23e19b9d1fce5b0c0e0e6f6efc814b51,PennController,10,0,PracTrial,NULL,Selector,TFResp,Selection,FalseResp,1725731175286,13,31,Y,FALSE,TRUE,Wrong!,undefined,ParticipantID,None,TrueResp;FalseResp
1725731376,23e19b9d1fce5b0c0e0e6f6efc814b51,PennController,10,0,PracTrial,NULL,PennController,9,_Trial_,End,1725731176308,13,31,Y,FALSE,TRUE,Wrong!,undefined,ParticipantID,None,NULL
1725731376,23e19b9d1fce5b0c0e0e6f6efc814b51,PennController,11,0,PracTrial,NULL,PennController,10,_Trial_,Start,1725731176312,12,28,Y,TRUE,FALSE,Wrong!,undefined,ParticipantID,None,NULL
1725731376,23e19b9d1fce5b0c0e0e6f6efc814b51,PennController,11,0,PracTrial,NULL,Text,CompQ,Print,NA,1725731189339,12,28,Y,TRUE,FALSE,Wrong!,undefined,ParticipantID,None,NULL
1725731376,23e19b9d1fce5b0c0e0e6f6efc814b51,PennController,11,0,PracTrial,NULL,Selector,TFResp,Selection,TrueResp,1725731194585,12,28,Y,TRUE,FALSE,Wrong!,undefined,ParticipantID,None,TrueResp;FalseResp
1725731376,23e19b9d1fce5b0c0e0e6f6efc814b51,PennController,11,0,PracTrial,NULL,PennController,10,_Trial_,End,1725731195596,12,28,Y,TRUE,FALSE,Wrong!,undefined,ParticipantID,None,NULL
1725731376,23e19b9d1fce5b0c0e0e6f6efc814b51,PennController,12,0,PracTrial,NULL,PennController,11,_Trial_,Start,1725731195601,40,19,N,N/A,,N/A,undefined,ParticipantID,None,NULL
1725731376,23e19b9d1fce5b0c0e0e6f6efc814b51,PennController,12,0,PracTrial,NULL,PennController,11,_Trial_,End,1725731200594,40,19,N,N/A,,N/A,undefined,ParticipantID,None,NULL
1725731376,23e19b9d1fce5b0c0e0e6f6efc814b51,PennController,13,0,PracTrial,NULL,PennController,12,_Trial_,Start,1725731200596,42,33,Y,TRUE,FALSE,Wrong!,undefined,ParticipantID,None,NULL
1725731376,23e19b9d1fce5b0c0e0e6f6efc814b51,PennController,13,0,PracTrial,NULL,Text,CompQ,Print,NA,1725731211870,42,33,Y,TRUE,FALSE,Wrong!,undefined,ParticipantID,None,NULL
1725731376,23e19b9d1fce5b0c0e0e6f6efc814b51,PennController,13,0,PracTrial,NULL,Selector,TFResp,Selection,TrueResp,1725731213020,42,33,Y,TRUE,FALSE,Wrong!,undefined,ParticipantID,None,TrueResp;FalseResp
1725731376,23e19b9d1fce5b0c0e0e6f6efc814b51,PennController,13,0,PracTrial,NULL,PennController,12,_Trial_,End,1725731214047,42,33,Y,TRUE,FALSE,Wrong!,undefined,ParticipantID,None,NULL
1725731376,23e19b9d1fce5b0c0e0e6f6efc814b51,PennController,14,0,PracTrial,NULL,PennController,13,_Trial_,Start,1725731214050,25,25,Y,TRUE,TRUE,Correct!,undefined,ParticipantID,None,NULL
1725731376,23e19b9d1fce5b0c0e0e6f6efc814b51,PennController,14,0,PracTrial,NULL,Text,CompQ,Print,NA,1725731228991,25,25,Y,TRUE,TRUE,Correct!,undefined,ParticipantID,None,NULL
1725731376,23e19b9d1fce5b0c0e0e6f6efc814b51,PennController,14,0,PracTrial,NULL,Selector,TFResp,Selection,TrueResp,1725731229850,25,25,Y,TRUE,TRUE,Correct!,undefined,ParticipantID,None,TrueResp;FalseResp
1725731376,23e19b9d1fce5b0c0e0e6f6efc814b51,PennController,14,0,PracTrial,NULL,PennController,13,_Trial_,End,1725731230877,25,25,Y,TRUE,TRUE,Correct!,undefined,ParticipantID,None,NULL
1725731376,23e19b9d1fce5b0c0e0e6f6efc814b51,PennController,15,0,PracTrial,NULL,PennController,14,_Trial_,Start,1725731230880,16,22,N,N/A,,N/A,undefined,ParticipantID,None,NULL
1725731376,23e19b9d1fce5b0c0e0e6f6efc814b51,PennController,15,0,PracTrial,NULL,PennController,14,_Trial_,End,1725731242898,16,22,N,N/A,,N/A,undefined,ParticipantID,None,NULL
# 13. Comments.
1725731376,23e19b9d1fce5b0c0e0e6f6efc814b51,PennController,16,0,ExpIntro,NULL,PennController,15,_Trial_,Start,1725731242912,NULL
1725731376,23e19b9d1fce5b0c0e0e6f6efc814b51,PennController,16,0,ExpIntro,NULL,PennController,15,_Trial_,End,1725731249742,NULL
# 13. ItemNum.
# 14. WC.
# 15. CompYN.
# 16. CompQResp.
# 17. CorResp.
# 18. Feedback.
# 19. WarnCount.
# 20. ParticipantID.
# 21. TrialNum.
# 22. Comments.
1725731376,23e19b9d1fce5b0c0e0e6f6efc814b51,PennController,19,0,ExpTrial,NULL,PennController,18,_Trial_,Start,1725731249748,3,25,Y,TRUE,FALSE,Wrong!,0,ParticipantID,1,NULL
1725731376,23e19b9d1fce5b0c0e0e6f6efc814b51,PennController,19,0,ExpTrial,NULL,Key,FullText-0-Pancreatic,PressedKey, ,1725731251231,3,25,Y,TRUE,FALSE,Wrong!,0,ParticipantID,1,Wait success
1725731376,23e19b9d1fce5b0c0e0e6f6efc814b51,PennController,19,0,ExpTrial,NULL,Key,FullText-1-cancer,PressedKey, ,1725731251403,3,25,Y,TRUE,FALSE,Wrong!,0,ParticipantID,1,Wait success
1725731376,23e19b9d1fce5b0c0e0e6f6efc814b51,PennController,19,0,ExpTrial,NULL,Key,FullText-2-has,PressedKey, ,1725731251563,3,25,Y,TRUE,FALSE,Wrong!,0,ParticipantID,1,Wait success
1725731376,23e19b9d1fce5b0c0e0e6f6efc814b51,PennController,19,0,ExpTrial,NULL,Key,FullText-3-a,PressedKey, ,1725731251745,3,25,Y,TRUE,FALSE,Wrong!,0,ParticipantID,1,Wait success
1725731376,23e19b9d1fce5b0c0e0e6f6efc814b51,PennController,19,0,ExpTrial,NULL,Key,FullText-4-bad,PressedKey, ,1725731251920,3,25,Y,TRUE,FALSE,Wrong!,0,ParticipantID,1,Wait success
1725731376,23e19b9d1fce5b0c0e0e6f6efc814b51,PennController,19,0,ExpTrial,NULL,Key,FullText-5-reputation.,PressedKey, ,1725731252089,3,25,Y,TRUE,FALSE,Wrong!,0,ParticipantID,1,Wait success
1725731376,23e19b9d1fce5b0c0e0e6f6efc814b51,PennController,19,0,ExpTrial,NULL,Key,FullText-6-It,PressedKey, ,1725731252277,3,25,Y,TRUE,FALSE,Wrong!,0,ParticipantID,1,Wait success
1725731376,23e19b9d1fce5b0c0e0e6f6efc814b51,PennController,19,0,ExpTrial,NULL,Key,FullText-7-is,PressedKey, ,1725731252449,3,25,Y,TRUE,FALSE,Wrong!,0,ParticipantID,1,Wait success
1725731376,23e19b9d1fce5b0c0e0e6f6efc814b51,PennController,19,0,ExpTrial,NULL,Key,FullText-8-a,PressedKey, ,1725731252624,3,25,Y,TRUE,FALSE,Wrong!,0,ParticipantID,1,Wait success
1725731376,23e19b9d1fce5b0c0e0e6f6efc814b51,PennController,19,0,ExpTrial,NULL,Key,FullText-9-terrible,PressedKey, ,1725731252819,3,25,Y,TRUE,FALSE,Wrong!,0,ParticipantID,1,Wait success
1725731376,23e19b9d1fce5b0c0e0e6f6efc814b51,PennController,19,0,ExpTrial,NULL,Key,FullText-10-disease%2C,PressedKey, ,1725731252969,3,25,Y,TRUE,FALSE,Wrong!,0,ParticipantID,1,Wait success
1725731376,23e19b9d1fce5b0c0e0e6f6efc814b51,PennController,19,0,ExpTrial,NULL,Key,FullText-11-but,PressedKey, ,1725731253152,3,25,Y,TRUE,FALSE,Wrong!,0,ParticipantID,1,Wait success
1725731376,23e19b9d1fce5b0c0e0e6f6efc814b51,PennController,19,0,ExpTrial,NULL,Key,FullText-12-most,PressedKey, ,1725731253349,3,25,Y,TRUE,FALSE,Wrong!,0,ParticipantID,1,Wait success
1725731376,23e19b9d1fce5b0c0e0e6f6efc814b51,PennController,19,0,ExpTrial,NULL,Key,FullText-13-people,PressedKey, ,1725731253507,3,25,Y,TRUE,FALSE,Wrong!,0,ParticipantID,1,Wait success
1725731376,23e19b9d1fce5b0c0e0e6f6efc814b51,PennController,19,0,ExpTrial,NULL,Key,FullText-14-do,PressedKey, ,1725731253722,3,25,Y,TRUE,FALSE,Wrong!,0,ParticipantID,1,Wait success
1725731376,23e19b9d1fce5b0c0e0e6f6efc814b51,PennController,19,0,ExpTrial,NULL,Key,FullText-15-not,PressedKey, ,1725731253919,3,25,Y,TRUE,FALSE,Wrong!,0,ParticipantID,1,Wait success
1725731376,23e19b9d1fce5b0c0e0e6f6efc814b51,PennController,19,0,ExpTrial,NULL,Key,FullText-16-realize,PressedKey, ,1725731254132,3,25,Y,TRUE,FALSE,Wrong!,0,ParticipantID,1,Wait success
1725731376,23e19b9d1fce5b0c0e0e6f6efc814b51,PennController,19,0,ExpTrial,NULL,Key,FullText-17-there,PressedKey, ,1725731254321,3,25,Y,TRUE,FALSE,Wrong!,0,ParticipantID,1,Wait success
1725731376,23e19b9d1fce5b0c0e0e6f6efc814b51,PennController,19,0,ExpTrial,NULL,Key,FullText-18-are,PressedKey, ,1725731254689,3,25,Y,TRUE,FALSE,Wrong!,0,ParticipantID,1,Wait success
1725731376,23e19b9d1fce5b0c0e0e6f6efc814b51,PennController,19,0,ExpTrial,NULL,Key,FullText-19-ways,PressedKey, ,1725731254870,3,25,Y,TRUE,FALSE,Wrong!,0,ParticipantID,1,Wait success
1725731376,23e19b9d1fce5b0c0e0e6f6efc814b51,PennController,19,0,ExpTrial,NULL,Key,FullText-20-that,PressedKey, ,1725731255057,3,25,Y,TRUE,FALSE,Wrong!,0,ParticipantID,1,Wait success
1725731376,23e19b9d1fce5b0c0e0e6f6efc814b51,PennController,19,0,ExpTrial,NULL,Key,FullText-21-early,PressedKey, ,1725731255251,3,25,Y,TRUE,FALSE,Wrong!,0,ParticipantID,1,Wait success
1725731376,23e19b9d1fce5b0c0e0e6f6efc814b51,PennController,19,0,ExpTrial,NULL,Key,FullText-22-detection,PressedKey, ,1725731255447,3,25,Y,TRUE,FALSE,Wrong!,0,ParticipantID,1,Wait success
1725731376,23e19b9d1fce5b0c0e0e6f6efc814b51,PennController,19,0,ExpTrial,NULL,Key,FullText-23-can,PressedKey, ,1725731255634,3,25,Y,TRUE,FALSE,Wrong!,0,ParticipantID,1,Wait success
1725731376,23e19b9d1fce5b0c0e0e6f6efc814b51,PennController,19,0,ExpTrial,NULL,Key,FullText-24-help.,PressedKey, ,1725731255838,3,25,Y,TRUE,FALSE,Wrong!,0,ParticipantID,1,Wait success
1725731376,23e19b9d1fce5b0c0e0e6f6efc814b51,PennController,19,0,ExpTrial,NULL,Key,FullText-last,PressedKey, ,1725731256021,3,25,Y,TRUE,FALSE,Wrong!,0,ParticipantID,1,Wait success
1725731376,23e19b9d1fce5b0c0e0e6f6efc814b51,PennController,19,0,ExpTrial,NULL,Text,CompQ,Print,NA,1725731256769,3,25,Y,TRUE,FALSE,Wrong!,0,ParticipantID,1,NULL
1725731376,23e19b9d1fce5b0c0e0e6f6efc814b51,PennController,19,0,ExpTrial,NULL,Selector,TFResp,Selection,TrueResp,1725731257918,3,25,Y,TRUE,FALSE,Wrong!,0,ParticipantID,1,TrueResp;FalseResp
1725731376,23e19b9d1fce5b0c0e0e6f6efc814b51,PennController,19,0,ExpTrial,NULL,PennController,18,_Trial_,End,1725731258928,3,25,Y,TRUE,FALSE,Wrong!,0,ParticipantID,1,NULL
1725731376,23e19b9d1fce5b0c0e0e6f6efc814b51,PennController,18,0,ExpTrial,NULL,PennController,17,_Trial_,Start,1725731258932,2,19,N,N/A,,N/A,0,ParticipantID,2,NULL
1725731376,23e19b9d1fce5b0c0e0e6f6efc814b51,PennController,18,0,ExpTrial,NULL,Key,FullText-0-Koalas,PressedKey, ,1725731268129,2,19,N,N/A,,N/A,0,ParticipantID,2,Wait success
1725731376,23e19b9d1fce5b0c0e0e6f6efc814b51,PennController,18,0,ExpTrial,NULL,Key,FullText-1-have,PressedKey, ,1725731268302,2,19,N,N/A,,N/A,0,ParticipantID,2,Wait success
1725731376,23e19b9d1fce5b0c0e0e6f6efc814b51,PennController,18,0,ExpTrial,NULL,Key,FullText-2-been,PressedKey, ,1725731268460,2,19,N,N/A,,N/A,0,ParticipantID,2,Wait success
1725731376,23e19b9d1fce5b0c0e0e6f6efc814b51,PennController,18,0,ExpTrial,NULL,Key,FullText-3-running,PressedKey, ,1725731268613,2,19,N,N/A,,N/A,0,ParticipantID,2,Wait success
1725731376,23e19b9d1fce5b0c0e0e6f6efc814b51,PennController,18,0,ExpTrial,NULL,Key,FullText-4-into,PressedKey, ,1725731268781,2,19,N,N/A,,N/A,0,ParticipantID,2,Wait success
1725731376,23e19b9d1fce5b0c0e0e6f6efc814b51,PennController,18,0,ExpTrial,NULL,Key,FullText-5-hard,PressedKey, ,1725731268944,2,19,N,N/A,,N/A,0,ParticipantID,2,Wait success
1725731376,23e19b9d1fce5b0c0e0e6f6efc814b51,PennController,18,0,ExpTrial,NULL,Key,FullText-6-times.,PressedKey, ,1725731269116,2,19,N,N/A,,N/A,0,ParticipantID,2,Wait success
1725731376,23e19b9d1fce5b0c0e0e6f6efc814b51,PennController,18,0,ExpTrial,NULL,Key,FullText-7-They,PressedKey, ,1725731269287,2,19,N,N/A,,N/A,0,ParticipantID,2,Wait success
1725731376,23e19b9d1fce5b0c0e0e6f6efc814b51,PennController,18,0,ExpTrial,NULL,Key,FullText-8-have,PressedKey, ,1725731269497,2,19,N,N/A,,N/A,0,ParticipantID,2,Wait success
1725731376,23e19b9d1fce5b0c0e0e6f6efc814b51,PennController,18,0,ExpTrial,NULL,Key,FullText-9-suffered,PressedKey, ,1725731269677,2,19,N,N/A,,N/A,0,ParticipantID,2,Wait success
1725731376,23e19b9d1fce5b0c0e0e6f6efc814b51,PennController,18,0,ExpTrial,NULL,Key,FullText-10-for,PressedKey, ,1725731269877,2,19,N,N/A,,N/A,0,ParticipantID,2,Wait success
1725731376,23e19b9d1fce5b0c0e0e6f6efc814b51,PennController,18,0,ExpTrial,NULL,Key,FullText-11-years,PressedKey, ,1725731270015,2,19,N,N/A,,N/A,0,ParticipantID,2,Wait success
1725731376,23e19b9d1fce5b0c0e0e6f6efc814b51,PennController,18,0,ExpTrial,NULL,Key,FullText-12-from,PressedKey, ,1725731270760,2,19,N,N/A,,N/A,0,ParticipantID,2,Wait success
1725731376,23e19b9d1fce5b0c0e0e6f6efc814b51,PennController,18,0,ExpTrial,NULL,Key,FullText-13-habitat,PressedKey, ,1725731270976,2,19,N,N/A,,N/A,0,ParticipantID,2,Wait success
1725731376,23e19b9d1fce5b0c0e0e6f6efc814b51,PennController,18,0,ExpTrial,NULL,Key,FullText-14-destruction%2C,PressedKey, ,1725731271415,2,19,N,N/A,,N/A,0,ParticipantID,2,Wait success
1725731376,23e19b9d1fce5b0c0e0e6f6efc814b51,PennController,18,0,ExpTrial,NULL,Key,FullText-15-dog,PressedKey, ,1725731271644,2,19,N,N/A,,N/A,0,ParticipantID,2,Wait success
1725731376,23e19b9d1fce5b0c0e0e6f6efc814b51,PennController,18,0,ExpTrial,NULL,Key,FullText-16-attacks%2C,PressedKey, ,1725731271856,2,19,N,N/A,,N/A,0,ParticipantID,2,Wait success
1725731376,23e19b9d1fce5b0c0e0e6f6efc814b51,PennController,18,0,ExpTrial,NULL,Key,FullText-17-automobile,PressedKey, ,1725731273553,2,19,N,N/A,,N/A,0,ParticipantID,2,Wait success
1725731376,23e19b9d1fce5b0c0e0e6f6efc814b51,PennController,18,0,ExpTrial,NULL,Key,FullText-18-accidents.,PressedKey, ,1725731275148,2,19,N,N/A,,N/A,0,ParticipantID,2,Wait success
1725731376,23e19b9d1fce5b0c0e0e6f6efc814b51,PennController,18,0,ExpTrial,NULL,Key,FullText-last,PressedKey, ,1725731275345,2,19,N,N/A,,N/A,0,ParticipantID,2,Wait success
1725731376,23e19b9d1fce5b0c0e0e6f6efc814b51,PennController,18,0,ExpTrial,NULL,PennController,17,_Trial_,End,1725731275350,2,19,N,N/A,,N/A,0,ParticipantID,2,NULL
1725731376,23e19b9d1fce5b0c0e0e6f6efc814b51,PennController,24,0,ExpTrial,NULL,PennController,23,_Trial_,Start,1725731275353,8,30,Y,TRUE,FALSE,Wrong!,0,ParticipantID,3,NULL
1725731376,23e19b9d1fce5b0c0e0e6f6efc814b51,PennController,24,0,ExpTrial,NULL,Key,FullText-0-When,PressedKey, ,1725731277425,8,30,Y,TRUE,FALSE,Wrong!,0,ParticipantID,3,Wait success
1725731376,23e19b9d1fce5b0c0e0e6f6efc814b51,PennController,24,0,ExpTrial,NULL,Key,FullText-1-new,PressedKey, ,1725731277609,8,30,Y,TRUE,FALSE,Wrong!,0,ParticipantID,3,Wait success
1725731376,23e19b9d1fce5b0c0e0e6f6efc814b51,PennController,24,0,ExpTrial,NULL,Key,FullText-2-breast,PressedKey, ,1725731277754,8,30,Y,TRUE,FALSE,Wrong!,0,ParticipantID,3,Wait success
1725731376,23e19b9d1fce5b0c0e0e6f6efc814b51,PennController,24,0,ExpTrial,NULL,Key,FullText-3-cancer,PressedKey, ,1725731277930,8,30,Y,TRUE,FALSE,Wrong!,0,ParticipantID,3,Wait success
1725731376,23e19b9d1fce5b0c0e0e6f6efc814b51,PennController,24,0,ExpTrial,NULL,Key,FullText-4-drugs,PressedKey, ,1725731278127,8,30,Y,TRUE,FALSE,Wrong!,0,ParticipantID,3,Wait success
1725731376,23e19b9d1fce5b0c0e0e6f6efc814b51,PennController,24,0,ExpTrial,NULL,Key,FullText-5-come,PressedKey, ,1725731278309,8,30,Y,TRUE,FALSE,Wrong!,0,ParticipantID,3,Wait success
1725731376,23e19b9d1fce5b0c0e0e6f6efc814b51,PennController,24,0,ExpTrial,NULL,Key,FullText-6-to,PressedKey, ,1725731278480,8,30,Y,TRUE,FALSE,Wrong!,0,ParticipantID,3,Wait success
1725731376,23e19b9d1fce5b0c0e0e6f6efc814b51,PennController,24,0,ExpTrial,NULL,Key,FullText-7-market%2C,PressedKey, ,1725731278626,8,30,Y,TRUE,FALSE,Wrong!,0,ParticipantID,3,Wait success
1725731376,23e19b9d1fce5b0c0e0e6f6efc814b51,PennController,24,0,ExpTrial,NULL,Key,FullText-8-there,PressedKey, ,1725731278787,8,30,Y,TRUE,FALSE,Wrong!,0,ParticipantID,3,Wait success
1725731376,23e19b9d1fce5b0c0e0e6f6efc814b51,PennController,24,0,ExpTrial,NULL,Key,FullText-9-is,PressedKey, ,1725731278956,8,30,Y,TRUE,FALSE,Wrong!,0,ParticipantID,3,Wait success
1725731376,23e19b9d1fce5b0c0e0e6f6efc814b51,PennController,24,0,ExpTrial,NULL,Key,FullText-10-little,PressedKey, ,1725731279123,8,30,Y,TRUE,FALSE,Wrong!,0,ParticipantID,3,Wait success
1725731376,23e19b9d1fce5b0c0e0e6f6efc814b51,PennController,24,0,ExpTrial,NULL,Key,FullText-11-data,PressedKey, ,1725731279309,8,30,Y,TRUE,FALSE,Wrong!,0,ParticipantID,3,Wait success
1725731376,23e19b9d1fce5b0c0e0e6f6efc814b51,PennController,24,0,ExpTrial,NULL,Key,FullText-12-to,PressedKey, ,1725731279481,8,30,Y,TRUE,FALSE,Wrong!,0,ParticipantID,3,Wait success
1725731376,23e19b9d1fce5b0c0e0e6f6efc814b51,PennController,24,0,ExpTrial,NULL,Key,FullText-13-indicate,PressedKey, ,1725731279650,8,30,Y,TRUE,FALSE,Wrong!,0,ParticipantID,3,Wait success
1725731376,23e19b9d1fce5b0c0e0e6f6efc814b51,PennController,24,0,ExpTrial,NULL,Key,FullText-14-whether,PressedKey, ,1725731279809,8,30,Y,TRUE,FALSE,Wrong!,0,ParticipantID,3,Wait success
1725731376,23e19b9d1fce5b0c0e0e6f6efc814b51,PennController,24,0,ExpTrial,NULL,Key,FullText-15-they,PressedKey, ,1725731279976,8,30,Y,TRUE,FALSE,Wrong!,0,ParticipantID,3,Wait success
1725731376,23e19b9d1fce5b0c0e0e6f6efc814b51,PennController,24,0,ExpTrial,NULL,Key,FullText-16-are,PressedKey, ,1725731280141,8,30,Y,TRUE,FALSE,Wrong!,0,ParticipantID,3,Wait success
1725731376,23e19b9d1fce5b0c0e0e6f6efc814b51,PennController,24,0,ExpTrial,NULL,Key,FullText-17-safe,PressedKey, ,1725731280324,8,30,Y,TRUE,FALSE,Wrong!,0,ParticipantID,3,Wait success
1725731376,23e19b9d1fce5b0c0e0e6f6efc814b51,PennController,24,0,ExpTrial,NULL,Key,FullText-18-or,PressedKey, ,1725731280511,8,30,Y,TRUE,FALSE,Wrong!,0,ParticipantID,3,Wait success
1725731376,23e19b9d1fce5b0c0e0e6f6efc814b51,PennController,24,0,ExpTrial,NULL,Key,FullText-19-effective,PressedKey, ,1725731280705,8,30,Y,TRUE,FALSE,Wrong!,0,ParticipantID,3,Wait success
1725731376,23e19b9d1fce5b0c0e0e6f6efc814b51,PennController,24,0,ExpTrial,NULL,Key,FullText-20-in,PressedKey, ,1725731280878,8,30,Y,TRUE,FALSE,Wrong!,0,ParticipantID,3,Wait success
1725731376,23e19b9d1fce5b0c0e0e6f6efc814b51,PennController,24,0,ExpTrial,NULL,Key,FullText-21-men.,PressedKey, ,1725731288179,8,30,Y,TRUE,FALSE,Wrong!,0,ParticipantID,3,Wait success
1725731376,23e19b9d1fce5b0c0e0e6f6efc814b51,PennController,24,0,ExpTrial,NULL,Key,FullText-22-Some,PressedKey, ,1725731288364,8,30,Y,TRUE,FALSE,Wrong!,0,ParticipantID,3,Wait success
1725731376,23e19b9d1fce5b0c0e0e6f6efc814b51,PennController,24,0,ExpTrial,NULL,Key,FullText-23-new,PressedKey, ,1725731288468,8,30,Y,TRUE,FALSE,Wrong!,0,ParticipantID,3,Wait success
1725731376,23e19b9d1fce5b0c0e0e6f6efc814b51,PennController,24,0,ExpTrial,NULL,Key,FullText-24-drugs,PressedKey, ,1725731288570,8,30,Y,TRUE,FALSE,Wrong!,0,ParticipantID,3,Wait success
1725731376,23e19b9d1fce5b0c0e0e6f6efc814b51,PennController,24,0,ExpTrial,NULL,Key,FullText-25-are,PressedKey, ,1725731288702,8,30,Y,TRUE,FALSE,Wrong!,0,ParticipantID,3,Wait success
1725731376,23e19b9d1fce5b0c0e0e6f6efc814b51,PennController,24,0,ExpTrial,NULL,Key,FullText-26-approved,PressedKey, ,1725731288813,8,30,Y,TRUE,FALSE,Wrong!,0,ParticipantID,3,Wait success
1725731376,23e19b9d1fce5b0c0e0e6f6efc814b51,PennController,24,0,ExpTrial,NULL,Key,FullText-27-only,PressedKey, ,1725731288936,8,30,Y,TRUE,FALSE,Wrong!,0,ParticipantID,3,Wait success
1725731376,23e19b9d1fce5b0c0e0e6f6efc814b51,PennController,24,0,ExpTrial,NULL,Key,FullText-28-for,PressedKey, ,1725731289057,8,30,Y,TRUE,FALSE,Wrong!,0,ParticipantID,3,Wait success
1725731376,23e19b9d1fce5b0c0e0e6f6efc814b51,PennController,24,0,ExpTrial,NULL,Key,FullText-29-women.,PressedKey, ,1725731289176,8,30,Y,TRUE,FALSE,Wrong!,0,ParticipantID,3,Wait success
1725731376,23e19b9d1fce5b0c0e0e6f6efc814b51,PennController,24,0,ExpTrial,NULL,Key,FullText-last,PressedKey, ,1725731289306,8,30,Y,TRUE,FALSE,Wrong!,0,ParticipantID,3,Wait success
1725731376,23e19b9d1fce5b0c0e0e6f6efc814b51,PennController,24,0,ExpTrial,NULL,Text,CompQ,Print,NA,1725731290302,8,30,Y,TRUE,FALSE,Wrong!,0,ParticipantID,3,NULL
1725731376,23e19b9d1fce5b0c0e0e6f6efc814b51,PennController,24,0,ExpTrial,NULL,Selector,TFResp,Selection,TrueResp,1725731290891,8,30,Y,TRUE,FALSE,Wrong!,0,ParticipantID,3,TrueResp;FalseResp
1725731376,23e19b9d1fce5b0c0e0e6f6efc814b51,PennController,24,0,ExpTrial,NULL,PennController,23,_Trial_,End,1725731291927,8,30,Y,TRUE,FALSE,Wrong!,0,ParticipantID,3,NULL
1725731376,23e19b9d1fce5b0c0e0e6f6efc814b51,PennController,22,0,ExpTrial,NULL,PennController,21,_Trial_,Start,1725731291931,6,30,N,N/A,,N/A,0,ParticipantID,4,NULL
1725731376,23e19b9d1fce5b0c0e0e6f6efc814b51,PennController,22,0,ExpTrial,NULL,Key,FullText-0-Legislators,PressedKey, ,1725731293232,6,30,N,N/A,,N/A,0,ParticipantID,4,Wait success
1725731376,23e19b9d1fce5b0c0e0e6f6efc814b51,PennController,22,0,ExpTrial,NULL,Key,FullText-1-and,PressedKey, ,1725731293448,6,30,N,N/A,,N/A,0,ParticipantID,4,Wait success
1725731376,23e19b9d1fce5b0c0e0e6f6efc814b51,PennController,22,0,ExpTrial,NULL,Key,FullText-2-gun,PressedKey, ,1725731293590,6,30,N,N/A,,N/A,0,ParticipantID,4,Wait success
1725731376,23e19b9d1fce5b0c0e0e6f6efc814b51,PennController,22,0,ExpTrial,NULL,Key,FullText-3-safety,PressedKey, ,1725731293763,6,30,N,N/A,,N/A,0,ParticipantID,4,Wait success
1725731376,23e19b9d1fce5b0c0e0e6f6efc814b51,PennController,22,0,ExpTrial,NULL,Key,FullText-4-advocates,PressedKey, ,1725731293937,6,30,N,N/A,,N/A,0,ParticipantID,4,Wait success
1725731376,23e19b9d1fce5b0c0e0e6f6efc814b51,PennController,22,0,ExpTrial,NULL,Key,FullText-5-often,PressedKey, ,1725731294107,6,30,N,N/A,,N/A,0,ParticipantID,4,Wait success
1725731376,23e19b9d1fce5b0c0e0e6f6efc814b51,PennController,22,0,ExpTrial,NULL,Key,FullText-6-focus,PressedKey, ,1725731294281,6,30,N,N/A,,N/A,0,ParticipantID,4,Wait success
1725731376,23e19b9d1fce5b0c0e0e6f6efc814b51,PennController,22,0,ExpTrial,NULL,Key,FullText-7-on,PressedKey, ,1725731294461,6,30,N,N/A,,N/A,0,ParticipantID,4,Wait success
1725731376,23e19b9d1fce5b0c0e0e6f6efc814b51,PennController,22,0,ExpTrial,NULL,Key,FullText-8-how,PressedKey, ,1725731294646,6,30,N,N/A,,N/A,0,ParticipantID,4,Wait success
1725731376,23e19b9d1fce5b0c0e0e6f6efc814b51,PennController,22,0,ExpTrial,NULL,Key,FullText-9-guns,PressedKey, ,1725731294823,6,30,N,N/A,,N/A,0,ParticipantID,4,Wait success
1725731376,23e19b9d1fce5b0c0e0e6f6efc814b51,PennController,22,0,ExpTrial,NULL,Key,FullText-10-are,PressedKey, ,1725731294991,6,30,N,N/A,,N/A,0,ParticipantID,4,Wait success
1725731376,23e19b9d1fce5b0c0e0e6f6efc814b51,PennController,22,0,ExpTrial,NULL,Key,FullText-11-purchased.,PressedKey, ,1725731295153,6,30,N,N/A,,N/A,0,ParticipantID,4,Wait success
1725731376,23e19b9d1fce5b0c0e0e6f6efc814b51,PennController,22,0,ExpTrial,NULL,Key,FullText-12-But,PressedKey, ,1725731295386,6,30,N,N/A,,N/A,0,ParticipantID,4,Wait success
1725731376,23e19b9d1fce5b0c0e0e6f6efc814b51,PennController,22,0,ExpTrial,NULL,Key,FullText-13-many,PressedKey, ,1725731295521,6,30,N,N/A,,N/A,0,ParticipantID,4,Wait success
1725731376,23e19b9d1fce5b0c0e0e6f6efc814b51,PennController,22,0,ExpTrial,NULL,Key,FullText-14-lives,PressedKey, ,1725731295889,6,30,N,N/A,,N/A,0,ParticipantID,4,Wait success
1725731376,23e19b9d1fce5b0c0e0e6f6efc814b51,PennController,22,0,ExpTrial,NULL,Key,FullText-15-could,PressedKey, ,1725731296128,6,30,N,N/A,,N/A,0,ParticipantID,4,Wait success
1725731376,23e19b9d1fce5b0c0e0e6f6efc814b51,PennController,22,0,ExpTrial,NULL,Key,FullText-16-be,PressedKey, ,1725731296608,6,30,N,N/A,,N/A,0,ParticipantID,4,Wait success
1725731376,23e19b9d1fce5b0c0e0e6f6efc814b51,PennController,22,0,ExpTrial,NULL,Key,FullText-17-saved%2C,PressedKey, ,1725731298522,6,30,N,N/A,,N/A,0,ParticipantID,4,Wait success
1725731376,23e19b9d1fce5b0c0e0e6f6efc814b51,PennController,22,0,ExpTrial,NULL,Key,FullText-18-especially,PressedKey, ,1725731298719,6,30,N,N/A,,N/A,0,ParticipantID,4,Wait success
1725731376,23e19b9d1fce5b0c0e0e6f6efc814b51,PennController,22,0,ExpTrial,NULL,Key,FullText-19-among,PressedKey, ,1725731298964,6,30,N,N/A,,N/A,0,ParticipantID,4,Wait success
1725731376,23e19b9d1fce5b0c0e0e6f6efc814b51,PennController,22,0,ExpTrial,NULL,Key,FullText-20-children%2C,PressedKey, ,1725731301892,6,30,N,N/A,,N/A,0,ParticipantID,4,Wait success
1725731376,23e19b9d1fce5b0c0e0e6f6efc814b51,PennController,22,0,ExpTrial,NULL,Key,FullText-21-if,PressedKey, ,1725731302869,6,30,N,N/A,,N/A,0,ParticipantID,4,Wait success
1725731376,23e19b9d1fce5b0c0e0e6f6efc814b51,PennController,22,0,ExpTrial,NULL,Key,FullText-22-they,PressedKey, ,1725731303968,6,30,N,N/A,,N/A,0,ParticipantID,4,Wait success
1725731376,23e19b9d1fce5b0c0e0e6f6efc814b51,PennController,22,0,ExpTrial,NULL,Key,FullText-23-looked,PressedKey, ,1725731304136,6,30,N,N/A,,N/A,0,ParticipantID,4,Wait success
1725731376,23e19b9d1fce5b0c0e0e6f6efc814b51,PennController,22,0,ExpTrial,NULL,Key,FullText-24-more,PressedKey, ,1725731304317,6,30,N,N/A,,N/A,0,ParticipantID,4,Wait success
1725731376,23e19b9d1fce5b0c0e0e6f6efc814b51,PennController,22,0,ExpTrial,NULL,Key,FullText-25-at,PressedKey, ,1725731304479,6,30,N,N/A,,N/A,0,ParticipantID,4,Wait success
1725731376,23e19b9d1fce5b0c0e0e6f6efc814b51,PennController,22,0,ExpTrial,NULL,Key,FullText-26-how,PressedKey, ,1725731304641,6,30,N,N/A,,N/A,0,ParticipantID,4,Wait success
1725731376,23e19b9d1fce5b0c0e0e6f6efc814b51,PennController,22,0,ExpTrial,NULL,Key,FullText-27-they,PressedKey, ,1725731304821,6,30,N,N/A,,N/A,0,ParticipantID,4,Wait success
1725731376,23e19b9d1fce5b0c0e0e6f6efc814b51,PennController,22,0,ExpTrial,NULL,Key,FullText-28-are,PressedKey, ,1725731304981,6,30,N,N/A,,N/A,0,ParticipantID,4,Wait success
1725731376,23e19b9d1fce5b0c0e0e6f6efc814b51,PennController,22,0,ExpTrial,NULL,Key,FullText-29-stored.,PressedKey, ,1725731305215,6,30,N,N/A,,N/A,0,ParticipantID,4,Wait success
1725731376,23e19b9d1fce5b0c0e0e6f6efc814b51,PennController,22,0,ExpTrial,NULL,Key,FullText-last,PressedKey, ,1725731305405,6,30,N,N/A,,N/A,0,ParticipantID,4,Wait success
1725731376,23e19b9d1fce5b0c0e0e6f6efc814b51,PennController,22,0,ExpTrial,NULL,PennController,21,_Trial_,End,1725731305408,6,30,N,N/A,,N/A,0,ParticipantID,4,NULL
1725731376,23e19b9d1fce5b0c0e0e6f6efc814b51,PennController,20,0,ExpTrial,NULL,PennController,19,_Trial_,Start,1725731305412,4,22,Y,TRUE,TRUE,Correct!,1,ParticipantID,5,NULL
1725731376,23e19b9d1fce5b0c0e0e6f6efc814b51,PennController,20,0,ExpTrial,NULL,Key,FullText-0-Some,PressedKey, ,1725731344762,4,22,Y,TRUE,TRUE,Correct!,1,ParticipantID,5,Wait success
1725731376,23e19b9d1fce5b0c0e0e6f6efc814b51,PennController,20,0,ExpTrial,NULL,Key,FullText-1-nutrition,PressedKey, ,1725731345005,4,22,Y,TRUE,TRUE,Correct!,1,ParticipantID,5,Wait success
1725731376,23e19b9d1fce5b0c0e0e6f6efc814b51,PennController,20,0,ExpTrial,NULL,Key,FullText-2-experts,PressedKey, ,1725731345152,4,22,Y,TRUE,TRUE,Correct!,1,ParticipantID,5,Wait success
1725731376,23e19b9d1fce5b0c0e0e6f6efc814b51,PennController,20,0,ExpTrial,NULL,Key,FullText-3-say,PressedKey, ,1725731345318,4,22,Y,TRUE,TRUE,Correct!,1,ParticipantID,5,Wait success
1725731376,23e19b9d1fce5b0c0e0e6f6efc814b51,PennController,20,0,ExpTrial,NULL,Key,FullText-4-eggs,PressedKey, ,1725731345472,4,22,Y,TRUE,TRUE,Correct!,1,ParticipantID,5,Wait success
1725731376,23e19b9d1fce5b0c0e0e6f6efc814b51,PennController,20,0,ExpTrial,NULL,Key,FullText-5-are,PressedKey, ,1725731345633,4,22,Y,TRUE,TRUE,Correct!,1,ParticipantID,5,Wait success
1725731376,23e19b9d1fce5b0c0e0e6f6efc814b51,PennController,20,0,ExpTrial,NULL,Key,FullText-6-good,PressedKey, ,1725731345800,4,22,Y,TRUE,TRUE,Correct!,1,ParticipantID,5,Wait success
1725731376,23e19b9d1fce5b0c0e0e6f6efc814b51,PennController,20,0,ExpTrial,NULL,Key,FullText-7-for,PressedKey, ,1725731345970,4,22,Y,TRUE,TRUE,Correct!,1,ParticipantID,5,Wait success
1725731376,23e19b9d1fce5b0c0e0e6f6efc814b51,PennController,20,0,ExpTrial,NULL,Key,FullText-8-you%2C,PressedKey, ,1725731346123,4,22,Y,TRUE,TRUE,Correct!,1,ParticipantID,5,Wait success
1725731376,23e19b9d1fce5b0c0e0e6f6efc814b51,PennController,20,0,ExpTrial,NULL,Key,FullText-9-even,PressedKey, ,1725731346309,4,22,Y,TRUE,TRUE,Correct!,1,ParticipantID,5,Wait success
1725731376,23e19b9d1fce5b0c0e0e6f6efc814b51,PennController,20,0,ExpTrial,NULL,Key,FullText-10-though,PressedKey, ,1725731346470,4,22,Y,TRUE,TRUE,Correct!,1,ParticipantID,5,Wait success
1725731376,23e19b9d1fce5b0c0e0e6f6efc814b51,PennController,20,0,ExpTrial,NULL,Key,FullText-11-they,PressedKey, ,1725731346638,4,22,Y,TRUE,TRUE,Correct!,1,ParticipantID,5,Wait success
1725731376,23e19b9d1fce5b0c0e0e6f6efc814b51,PennController,20,0,ExpTrial,NULL,Key,FullText-12-are,PressedKey, ,1725731346814,4,22,Y,TRUE,TRUE,Correct!,1,ParticipantID,5,Wait success
1725731376,23e19b9d1fce5b0c0e0e6f6efc814b51,PennController,20,0,ExpTrial,NULL,Key,FullText-13-high,PressedKey, ,1725731346979,4,22,Y,TRUE,TRUE,Correct!,1,ParticipantID,5,Wait success
1725731376,23e19b9d1fce5b0c0e0e6f6efc814b51,PennController,20,0,ExpTrial,NULL,Key,FullText-14-in,PressedKey, ,1725731347160,4,22,Y,TRUE,TRUE,Correct!,1,ParticipantID,5,Wait success
1725731376,23e19b9d1fce5b0c0e0e6f6efc814b51,PennController,20,0,ExpTrial,NULL,Key,FullText-15-cholesterol.,PressedKey, ,1725731347356,4,22,Y,TRUE,TRUE,Correct!,1,ParticipantID,5,Wait success
1725731376,23e19b9d1fce5b0c0e0e6f6efc814b51,PennController,20,0,ExpTrial,NULL,Key,FullText-16-Others,PressedKey, ,1725731347538,4,22,Y,TRUE,TRUE,Correct!,1,ParticipantID,5,Wait success
1725731376,23e19b9d1fce5b0c0e0e6f6efc814b51,PennController,20,0,ExpTrial,NULL,Key,FullText-17-are,PressedKey, ,1725731347722,4,22,Y,TRUE,TRUE,Correct!,1,ParticipantID,5,Wait success
1725731376,23e19b9d1fce5b0c0e0e6f6efc814b51,PennController,20,0,ExpTrial,NULL,Key,FullText-18-sure,PressedKey, ,1725731347892,4,22,Y,TRUE,TRUE,Correct!,1,ParticipantID,5,Wait success
1725731376,23e19b9d1fce5b0c0e0e6f6efc814b51,PennController,20,0,ExpTrial,NULL,Key,FullText-19-they,PressedKey, ,1725731348075,4,22,Y,TRUE,TRUE,Correct!,1,ParticipantID,5,Wait success
1725731376,23e19b9d1fce5b0c0e0e6f6efc814b51,PennController,20,0,ExpTrial,NULL,Key,FullText-20-are,PressedKey, ,1725731348249,4,22,Y,TRUE,TRUE,Correct!,1,ParticipantID,5,Wait success
1725731376,23e19b9d1fce5b0c0e0e6f6efc814b51,PennController,20,0,ExpTrial,NULL,Key,FullText-21-bad.,PressedKey, ,1725731348418,4,22,Y,TRUE,TRUE,Correct!,1,ParticipantID,5,Wait success
1725731376,23e19b9d1fce5b0c0e0e6f6efc814b51,PennController,20,0,ExpTrial,NULL,Key,FullText-last,PressedKey, ,1725731348587,4,22,Y,TRUE,TRUE,Correct!,1,ParticipantID,5,Wait success
1725731376,23e19b9d1fce5b0c0e0e6f6efc814b51,PennController,20,0,ExpTrial,NULL,Text,CompQ,Print,NA,1725731350876,4,22,Y,TRUE,TRUE,Correct!,1,ParticipantID,5,NULL
1725731376,23e19b9d1fce5b0c0e0e6f6efc814b51,PennController,20,0,ExpTrial,NULL,Selector,TFResp,Selection,TrueResp,1725731351652,4,22,Y,TRUE,TRUE,Correct!,1,ParticipantID,5,TrueResp;FalseResp
1725731376,23e19b9d1fce5b0c0e0e6f6efc814b51,PennController,20,0,ExpTrial,NULL,PennController,19,_Trial_,End,1725731352678,4,22,Y,TRUE,TRUE,Correct!,1,ParticipantID,5,NULL
1725731376,23e19b9d1fce5b0c0e0e6f6efc814b51,PennController,17,0,ExpTrial,NULL,PennController,16,_Trial_,Start,1725731352682,1,16,N,N/A,,N/A,1,ParticipantID,6,NULL
1725731376,23e19b9d1fce5b0c0e0e6f6efc814b51,PennController,17,0,ExpTrial,NULL,Key,FullText-0-Very,PressedKey, ,1725731354782,1,16,N,N/A,,N/A,1,ParticipantID,6,Wait success
1725731376,23e19b9d1fce5b0c0e0e6f6efc814b51,PennController,17,0,ExpTrial,NULL,Key,FullText-1-few,PressedKey, ,1725731354966,1,16,N,N/A,,N/A,1,ParticipantID,6,Wait success
1725731376,23e19b9d1fce5b0c0e0e6f6efc814b51,PennController,17,0,ExpTrial,NULL,Key,FullText-2-issues,PressedKey, ,1725731355114,1,16,N,N/A,,N/A,1,ParticipantID,6,Wait success
1725731376,23e19b9d1fce5b0c0e0e6f6efc814b51,PennController,17,0,ExpTrial,NULL,Key,FullText-3-can,PressedKey, ,1725731355268,1,16,N,N/A,,N/A,1,ParticipantID,6,Wait success
1725731376,23e19b9d1fce5b0c0e0e6f6efc814b51,PennController,17,0,ExpTrial,NULL,Key,FullText-4-bring,PressedKey, ,1725731355436,1,16,N,N/A,,N/A,1,ParticipantID,6,Wait success
1725731376,23e19b9d1fce5b0c0e0e6f6efc814b51,PennController,17,0,ExpTrial,NULL,Key,FullText-5-together,PressedKey, ,1725731355579,1,16,N,N/A,,N/A,1,ParticipantID,6,Wait success
1725731376,23e19b9d1fce5b0c0e0e6f6efc814b51,PennController,17,0,ExpTrial,NULL,Key,FullText-6-lawmakers,PressedKey, ,1725731355766,1,16,N,N/A,,N/A,1,ParticipantID,6,Wait success
1725731376,23e19b9d1fce5b0c0e0e6f6efc814b51,PennController,17,0,ExpTrial,NULL,Key,FullText-7-of,PressedKey, ,1725731355954,1,16,N,N/A,,N/A,1,ParticipantID,6,Wait success
1725731376,23e19b9d1fce5b0c0e0e6f6efc814b51,PennController,17,0,ExpTrial,NULL,Key,FullText-8-both,PressedKey, ,1725731356164,1,16,N,N/A,,N/A,1,ParticipantID,6,Wait success
1725731376,23e19b9d1fce5b0c0e0e6f6efc814b51,PennController,17,0,ExpTrial,NULL,Key,FullText-9-parties.,PressedKey, ,1725731356327,1,16,N,N/A,,N/A,1,ParticipantID,6,Wait success
1725731376,23e19b9d1fce5b0c0e0e6f6efc814b51,PennController,17,0,ExpTrial,NULL,Key,FullText-10-Animal,PressedKey, ,1725731356542,1,16,N,N/A,,N/A,1,ParticipantID,6,Wait success
1725731376,23e19b9d1fce5b0c0e0e6f6efc814b51,PennController,17,0,ExpTrial,NULL,Key,FullText-11-cruelty,PressedKey, ,1725731356747,1,16,N,N/A,,N/A,1,ParticipantID,6,Wait success
1725731376,23e19b9d1fce5b0c0e0e6f6efc814b51,PennController,17,0,ExpTrial,NULL,Key,FullText-12-is,PressedKey, ,1725731357092,1,16,N,N/A,,N/A,1,ParticipantID,6,Wait success
1725731376,23e19b9d1fce5b0c0e0e6f6efc814b51,PennController,17,0,ExpTrial,NULL,Key,FullText-13-one,PressedKey, ,1725731358550,1,16,N,N/A,,N/A,1,ParticipantID,6,Wait success
1725731376,23e19b9d1fce5b0c0e0e6f6efc814b51,PennController,17,0,ExpTrial,NULL,Key,FullText-14-of,PressedKey, ,1725731358738,1,16,N,N/A,,N/A,1,ParticipantID,6,Wait success
1725731376,23e19b9d1fce5b0c0e0e6f6efc814b51,PennController,17,0,ExpTrial,NULL,Key,FullText-15-them.,PressedKey, ,1725731358922,1,16,N,N/A,,N/A,1,ParticipantID,6,Wait success
1725731376,23e19b9d1fce5b0c0e0e6f6efc814b51,PennController,17,0,ExpTrial,NULL,Key,FullText-last,PressedKey, ,1725731359104,1,16,N,N/A,,N/A,1,ParticipantID,6,Wait success
1725731376,23e19b9d1fce5b0c0e0e6f6efc814b51,PennController,17,0,ExpTrial,NULL,PennController,16,_Trial_,End,1725731359109,1,16,N,N/A,,N/A,1,ParticipantID,6,NULL
1725731376,23e19b9d1fce5b0c0e0e6f6efc814b51,PennController,23,0,ExpTrial,NULL,PennController,22,_Trial_,Start,1725731359112,7,29,N,N/A,,N/A,1,ParticipantID,7,NULL
1725731376,23e19b9d1fce5b0c0e0e6f6efc814b51,PennController,23,0,ExpTrial,NULL,Key,FullText-0-In,PressedKey, ,1725731360040,7,29,N,N/A,,N/A,1,ParticipantID,7,Wait success
1725731376,23e19b9d1fce5b0c0e0e6f6efc814b51,PennController,23,0,ExpTrial,NULL,Key,FullText-1-general%2C,PressedKey, ,1725731360214,7,29,N,N/A,,N/A,1,ParticipantID,7,Wait success
1725731376,23e19b9d1fce5b0c0e0e6f6efc814b51,PennController,23,0,ExpTrial,NULL,Key,FullText-2-any,PressedKey, ,1725731360374,7,29,N,N/A,,N/A,1,ParticipantID,7,Wait success
1725731376,23e19b9d1fce5b0c0e0e6f6efc814b51,PennController,23,0,ExpTrial,NULL,Key,FullText-3-exercise,PressedKey, ,1725731360522,7,29,N,N/A,,N/A,1,ParticipantID,7,Wait success
1725731376,23e19b9d1fce5b0c0e0e6f6efc814b51,PennController,23,0,ExpTrial,NULL,Key,FullText-4-improves,PressedKey, ,1725731360713,7,29,N,N/A,,N/A,1,ParticipantID,7,Wait success
1725731376,23e19b9d1fce5b0c0e0e6f6efc814b51,PennController,23,0,ExpTrial,NULL,Key,FullText-5-our,PressedKey, ,1725731360894,7,29,N,N/A,,N/A,1,ParticipantID,7,Wait success
1725731376,23e19b9d1fce5b0c0e0e6f6efc814b51,PennController,23,0,ExpTrial,NULL,Key,FullText-6-health.,PressedKey, ,1725731361110,7,29,N,N/A,,N/A,1,ParticipantID,7,Wait success
1725731376,23e19b9d1fce5b0c0e0e6f6efc814b51,PennController,23,0,ExpTrial,NULL,Key,FullText-7-But,PressedKey, ,1725731361478,7,29,N,N/A,,N/A,1,ParticipantID,7,Wait success
1725731376,23e19b9d1fce5b0c0e0e6f6efc814b51,PennController,23,0,ExpTrial,NULL,Key,FullText-8-a,PressedKey, ,1725731361658,7,29,N,N/A,,N/A,1,ParticipantID,7,Wait success
1725731376,23e19b9d1fce5b0c0e0e6f6efc814b51,PennController,23,0,ExpTrial,NULL,Key,FullText-9-wealth,PressedKey, ,1725731361858,7,29,N,N/A,,N/A,1,ParticipantID,7,Wait success
1725731376,23e19b9d1fce5b0c0e0e6f6efc814b51,PennController,23,0,ExpTrial,NULL,Key,FullText-10-of,PressedKey, ,1725731362034,7,29,N,N/A,,N/A,1,ParticipantID,7,Wait success
1725731376,23e19b9d1fce5b0c0e0e6f6efc814b51,PennController,23,0,ExpTrial,NULL,Key,FullText-11-recent,PressedKey, ,1725731362242,7,29,N,N/A,,N/A,1,ParticipantID,7,Wait success
1725731376,23e19b9d1fce5b0c0e0e6f6efc814b51,PennController,23,0,ExpTrial,NULL,Key,FullText-12-science,PressedKey, ,1725731362486,7,29,N,N/A,,N/A,1,ParticipantID,7,Wait success
1725731376,23e19b9d1fce5b0c0e0e6f6efc814b51,PennController,23,0,ExpTrial,NULL,Key,FullText-13-and,PressedKey, ,1725731362687,7,29,N,N/A,,N/A,1,ParticipantID,7,Wait success
1725731376,23e19b9d1fce5b0c0e0e6f6efc814b51,PennController,23,0,ExpTrial,NULL,Key,FullText-14-personal,PressedKey, ,1725731363413,7,29,N,N/A,,N/A,1,ParticipantID,7,Wait success
1725731376,23e19b9d1fce5b0c0e0e6f6efc814b51,PennController,23,0,ExpTrial,NULL,Key,FullText-15-experience,PressedKey, ,1725731363618,7,29,N,N/A,,N/A,1,ParticipantID,7,Wait success
1725731376,23e19b9d1fce5b0c0e0e6f6efc814b51,PennController,23,0,ExpTrial,NULL,Key,FullText-16-indicate,PressedKey, ,1725731363798,7,29,N,N/A,,N/A,1,ParticipantID,7,Wait success
1725731376,23e19b9d1fce5b0c0e0e6f6efc814b51,PennController,23,0,ExpTrial,NULL,Key,FullText-17-that,PressedKey, ,1725731364026,7,29,N,N/A,,N/A,1,ParticipantID,7,Wait success
1725731376,23e19b9d1fce5b0c0e0e6f6efc814b51,PennController,23,0,ExpTrial,NULL,Key,FullText-18-different,PressedKey, ,1725731364204,7,29,N,N/A,,N/A,1,ParticipantID,7,Wait success
1725731376,23e19b9d1fce5b0c0e0e6f6efc814b51,PennController,23,0,ExpTrial,NULL,Key,FullText-19-people,PressedKey, ,1725731364463,7,29,N,N/A,,N/A,1,ParticipantID,7,Wait success
1725731376,23e19b9d1fce5b0c0e0e6f6efc814b51,PennController,23,0,ExpTrial,NULL,Key,FullText-20-can,PressedKey, ,1725731364857,7,29,N,N/A,,N/A,1,ParticipantID,7,Wait success
1725731376,23e19b9d1fce5b0c0e0e6f6efc814b51,PennController,23,0,ExpTrial,NULL,Key,FullText-21-respond,PressedKey, ,1725731365051,7,29,N,N/A,,N/A,1,ParticipantID,7,Wait success
1725731376,23e19b9d1fce5b0c0e0e6f6efc814b51,PennController,23,0,ExpTrial,NULL,Key,FullText-22-to,PressedKey, ,1725731365235,7,29,N,N/A,,N/A,1,ParticipantID,7,Wait success
1725731376,23e19b9d1fce5b0c0e0e6f6efc814b51,PennController,23,0,ExpTrial,NULL,Key,FullText-23-similar,PressedKey, ,1725731365443,7,29,N,N/A,,N/A,1,ParticipantID,7,Wait success
1725731376,23e19b9d1fce5b0c0e0e6f6efc814b51,PennController,23,0,ExpTrial,NULL,Key,FullText-24-exercise,PressedKey, ,1725731365642,7,29,N,N/A,,N/A,1,ParticipantID,7,Wait success
1725731376,23e19b9d1fce5b0c0e0e6f6efc814b51,PennController,23,0,ExpTrial,NULL,Key,FullText-25-routines,PressedKey, ,1725731365921,7,29,N,N/A,,N/A,1,ParticipantID,7,Wait success
1725731376,23e19b9d1fce5b0c0e0e6f6efc814b51,PennController,23,0,ExpTrial,NULL,Key,FullText-26-in,PressedKey, ,1725731366532,7,29,N,N/A,,N/A,1,ParticipantID,7,Wait success
1725731376,23e19b9d1fce5b0c0e0e6f6efc814b51,PennController,23,0,ExpTrial,NULL,Key,FullText-27-different,PressedKey, ,1725731366714,7,29,N,N/A,,N/A,1,ParticipantID,7,Wait success
1725731376,23e19b9d1fce5b0c0e0e6f6efc814b51,PennController,23,0,ExpTrial,NULL,Key,FullText-28-ways.,PressedKey, ,1725731366952,7,29,N,N/A,,N/A,1,ParticipantID,7,Wait success
1725731376,23e19b9d1fce5b0c0e0e6f6efc814b51,PennController,23,0,ExpTrial,NULL,Key,FullText-last,PressedKey, ,1725731367105,7,29,N,N/A,,N/A,1,ParticipantID,7,Wait success
1725731376,23e19b9d1fce5b0c0e0e6f6efc814b51,PennController,23,0,ExpTrial,NULL,PennController,22,_Trial_,End,1725731367110,7,29,N,N/A,,N/A,1,ParticipantID,7,NULL
1725731376,23e19b9d1fce5b0c0e0e6f6efc814b51,PennController,21,0,ExpTrial,NULL,PennController,20,_Trial_,Start,1725731367113,5,27,Y,TRUE,TRUE,Correct!,1,ParticipantID,8,NULL
1725731376,23e19b9d1fce5b0c0e0e6f6efc814b51,PennController,21,0,ExpTrial,NULL,Key,FullText-0-Experts,PressedKey, ,1725731368166,5,27,Y,TRUE,TRUE,Correct!,1,ParticipantID,8,Wait success
1725731376,23e19b9d1fce5b0c0e0e6f6efc814b51,PennController,21,0,ExpTrial,NULL,Key,FullText-1-generally,PressedKey, ,1725731368353,5,27,Y,TRUE,TRUE,Correct!,1,ParticipantID,8,Wait success
1725731376,23e19b9d1fce5b0c0e0e6f6efc814b51,PennController,21,0,ExpTrial,NULL,Key,FullText-2-agree,PressedKey, ,1725731368509,5,27,Y,TRUE,TRUE,Correct!,1,ParticipantID,8,Wait success
1725731376,23e19b9d1fce5b0c0e0e6f6efc814b51,PennController,21,0,ExpTrial,NULL,Key,FullText-3-that,PressedKey, ,1725731368747,5,27,Y,TRUE,TRUE,Correct!,1,ParticipantID,8,Wait success
1725731376,23e19b9d1fce5b0c0e0e6f6efc814b51,PennController,21,0,ExpTrial,NULL,Key,FullText-4-watching,PressedKey, ,1725731368910,5,27,Y,TRUE,TRUE,Correct!,1,ParticipantID,8,Wait success
1725731376,23e19b9d1fce5b0c0e0e6f6efc814b51,PennController,21,0,ExpTrial,NULL,Key,FullText-5-a,PressedKey, ,1725731369124,5,27,Y,TRUE,TRUE,Correct!,1,ParticipantID,8,Wait success
1725731376,23e19b9d1fce5b0c0e0e6f6efc814b51,PennController,21,0,ExpTrial,NULL,Key,FullText-6-lot,PressedKey, ,1725731369968,5,27,Y,TRUE,TRUE,Correct!,1,ParticipantID,8,Wait success
1725731376,23e19b9d1fce5b0c0e0e6f6efc814b51,PennController,21,0,ExpTrial,NULL,Key,FullText-7-of,PressedKey, ,1725731370148,5,27,Y,TRUE,TRUE,Correct!,1,ParticipantID,8,Wait success
1725731376,23e19b9d1fce5b0c0e0e6f6efc814b51,PennController,21,0,ExpTrial,NULL,Key,FullText-8-television,PressedKey, ,1725731370315,5,27,Y,TRUE,TRUE,Correct!,1,ParticipantID,8,Wait success
1725731376,23e19b9d1fce5b0c0e0e6f6efc814b51,PennController,21,0,ExpTrial,NULL,Key,FullText-9-is,PressedKey, ,1725731370497,5,27,Y,TRUE,TRUE,Correct!,1,ParticipantID,8,Wait success
1725731376,23e19b9d1fce5b0c0e0e6f6efc814b51,PennController,21,0,ExpTrial,NULL,Key,FullText-10-bad,PressedKey, ,1725731370660,5,27,Y,TRUE,TRUE,Correct!,1,ParticipantID,8,Wait success
1725731376,23e19b9d1fce5b0c0e0e6f6efc814b51,PennController,21,0,ExpTrial,NULL,Key,FullText-11-for,PressedKey, ,1725731370840,5,27,Y,TRUE,TRUE,Correct!,1,ParticipantID,8,Wait success
1725731376,23e19b9d1fce5b0c0e0e6f6efc814b51,PennController,21,0,ExpTrial,NULL,Key,FullText-12-children.,PressedKey, ,1725731371067,5,27,Y,TRUE,TRUE,Correct!,1,ParticipantID,8,Wait success
1725731376,23e19b9d1fce5b0c0e0e6f6efc814b51,PennController,21,0,ExpTrial,NULL,Key,FullText-13-Now,PressedKey, ,1725731371218,5,27,Y,TRUE,TRUE,Correct!,1,ParticipantID,8,Wait success
1725731376,23e19b9d1fce5b0c0e0e6f6efc814b51,PennController,21,0,ExpTrial,NULL,Key,FullText-14-a,PressedKey, ,1725731371396,5,27,Y,TRUE,TRUE,Correct!,1,ParticipantID,8,Wait success
1725731376,23e19b9d1fce5b0c0e0e6f6efc814b51,PennController,21,0,ExpTrial,NULL,Key,FullText-15-new,PressedKey, ,1725731371548,5,27,Y,TRUE,TRUE,Correct!,1,ParticipantID,8,Wait success
1725731376,23e19b9d1fce5b0c0e0e6f6efc814b51,PennController,21,0,ExpTrial,NULL,Key,FullText-16-study,PressedKey, ,1725731371723,5,27,Y,TRUE,TRUE,Correct!,1,ParticipantID,8,Wait success
1725731376,23e19b9d1fce5b0c0e0e6f6efc814b51,PennController,21,0,ExpTrial,NULL,Key,FullText-17-suggests,PressedKey, ,1725731371892,5,27,Y,TRUE,TRUE,Correct!,1,ParticipantID,8,Wait success
1725731376,23e19b9d1fce5b0c0e0e6f6efc814b51,PennController,21,0,ExpTrial,NULL,Key,FullText-18-it,PressedKey, ,1725731372061,5,27,Y,TRUE,TRUE,Correct!,1,ParticipantID,8,Wait success
1725731376,23e19b9d1fce5b0c0e0e6f6efc814b51,PennController,21,0,ExpTrial,NULL,Key,FullText-19-may,PressedKey, ,1725731372239,5,27,Y,TRUE,TRUE,Correct!,1,ParticipantID,8,Wait success
1725731376,23e19b9d1fce5b0c0e0e6f6efc814b51,PennController,21,0,ExpTrial,NULL,Key,FullText-20-not,PressedKey, ,1725731372426,5,27,Y,TRUE,TRUE,Correct!,1,ParticipantID,8,Wait success
1725731376,23e19b9d1fce5b0c0e0e6f6efc814b51,PennController,21,0,ExpTrial,NULL,Key,FullText-21-be,PressedKey, ,1725731372939,5,27,Y,TRUE,TRUE,Correct!,1,ParticipantID,8,Wait success
1725731376,23e19b9d1fce5b0c0e0e6f6efc814b51,PennController,21,0,ExpTrial,NULL,Key,FullText-22-very,PressedKey, ,1725731373138,5,27,Y,TRUE,TRUE,Correct!,1,ParticipantID,8,Wait success
1725731376,23e19b9d1fce5b0c0e0e6f6efc814b51,PennController,21,0,ExpTrial,NULL,Key,FullText-23-good,PressedKey, ,1725731373344,5,27,Y,TRUE,TRUE,Correct!,1,ParticipantID,8,Wait success
1725731376,23e19b9d1fce5b0c0e0e6f6efc814b51,PennController,21,0,ExpTrial,NULL,Key,FullText-24-for,PressedKey, ,1725731373539,5,27,Y,TRUE,TRUE,Correct!,1,ParticipantID,8,Wait success
1725731376,23e19b9d1fce5b0c0e0e6f6efc814b51,PennController,21,0,ExpTrial,NULL,Key,FullText-25-adults%2C,PressedKey, ,1725731373707,5,27,Y,TRUE,TRUE,Correct!,1,ParticipantID,8,Wait success
1725731376,23e19b9d1fce5b0c0e0e6f6efc814b51,PennController,21,0,ExpTrial,NULL,Key,FullText-26-either.,PressedKey, ,1725731373885,5,27,Y,TRUE,TRUE,Correct!,1,ParticipantID,8,Wait success
1725731376,23e19b9d1fce5b0c0e0e6f6efc814b51,PennController,21,0,ExpTrial,NULL,Key,FullText-last,PressedKey, ,1725731374054,5,27,Y,TRUE,TRUE,Correct!,1,ParticipantID,8,Wait success
1725731376,23e19b9d1fce5b0c0e0e6f6efc814b51,PennController,21,0,ExpTrial,NULL,Text,CompQ,Print,NA,1725731374686,5,27,Y,TRUE,TRUE,Correct!,1,ParticipantID,8,NULL
1725731376,23e19b9d1fce5b0c0e0e6f6efc814b51,PennController,21,0,ExpTrial,NULL,Selector,TFResp,Selection,TrueResp,1725731375405,5,27,Y,TRUE,TRUE,Correct!,1,ParticipantID,8,TrueResp;FalseResp
1725731376,23e19b9d1fce5b0c0e0e6f6efc814b51,PennController,21,0,ExpTrial,NULL,PennController,20,_Trial_,End,1725731376436,5,27,Y,TRUE,TRUE,Correct!,1,ParticipantID,8,NULL